File: data/rawdata_robin_all/popularity_export/TGA.csv
timestamp,users_holding
"2018-05-02 04:54:29",134
"2018-05-03 17:43:49",136
"2018-05-04 07:43:48",137
"2018-05-04 21:43:48",144
"2018-05-05 11:43:49",144
"2018-05-06 01:43:49",144
"2018-05-06 15:43:49",144
"2018-05-07 04:43:49",144
"2018-05-07 23:43:49",143
"2018-05-08 13:43:49",143
"2018-05-09 03:43:48",152
"2018-05-09 17:43:50",155
"2018-05-10 07:43:51",158
"2018-05-10 21:43:50",157
"2018-05-11 11:43:50",157
"2018-05-12 01:43:50",154
"2018-05-12 15:43:51",154
"2018-05-13 05:43:50",154
"2018-05-13 19:43:49",154
"2018-05-14 09:43:49",154
"2018-05-14 23:43:51",154
"2018-05-15 13:43:51",154
"2018-05-16 03:43:50",147
"2018-05-16 17:43:51",147
"2018-05-17 07:43:50",147
"2018-05-18 12:43:50",159
"2018-05-19 02:43:50",173
"2018-05-19 16:43:50",173
"2018-05-20 06:43:48",173
"2018-05-20 20:43:49",173
"2018-05-21 10:43:49",173
"2018-05-22 00:43:50",284
"2018-05-22 14:43:50",300
"2018-05-23 04:43:50",306
"2018-05-23 18:43:49",312
"2018-05-24 09:43:50",320
"2018-05-25 05:43:51",311
"2018-05-25 19:43:51",298
"2018-05-26 09:43:49",297
"2018-05-26 23:43:51",297
"2018-05-27 13:43:51",297
"2018-05-28 03:43:51",297
"2018-05-28 17:43:51",297
"2018-05-29 07:43:50",297
"2018-05-31 03:43:55",266
"2018-05-31 17:43:50",274
"2018-06-01 07:43:52",275
"2018-06-01 21:43:52",273
"2018-06-02 11:43:51",273
"2018-06-03 01:43:52",273
"2018-06-04 03:43:51",273
"2018-06-04 17:43:46",268
"2018-06-05 07:43:47",266
"2018-06-05 21:43:47",271
"2018-06-06 11:43:48",271
"2018-06-07 01:43:51",271
"2018-06-07 15:43:51",269
"2018-06-08 05:43:51",271
"2018-06-08 19:43:51",264
"2018-06-09 09:43:51",260
"2018-06-09 23:43:51",260
"2018-06-10 13:43:51",260
"2018-06-11 03:43:52",260
"2018-06-11 18:43:51",264
"2018-06-12 08:43:51",266
"2018-06-12 22:43:50",266
"2018-06-13 12:43:51",266
"2018-06-14 02:43:52",263
"2018-06-14 16:43:52",267
"2018-06-15 06:43:54",265
"2018-06-15 20:43:53",255
"2018-06-16 10:43:52",255
"2018-06-17 00:43:53",255
"2018-06-17 14:43:53",255
"2018-06-18 04:43:52",255
"2018-06-18 18:43:54",252
"2018-06-19 08:43:54",248
"2018-06-19 22:43:52",242
"2018-06-20 12:43:52",242
"2018-06-21 02:43:53",250
"2018-06-21 16:43:53",254
"2018-06-22 06:43:52",249
"2018-06-22 20:43:53",249
"2018-06-23 10:43:53",249
"2018-06-24 00:44:13",249
"2018-06-24 14:44:08",249
"2018-06-25 04:44:00",249
"2018-06-25 18:43:53",247
"2018-06-26 09:43:56",247
"2018-06-26 23:43:53",257
"2018-06-27 13:44:15",257
"2018-06-28 03:44:10",281
"2018-06-28 17:43:55",326
"2018-06-29 07:43:55",331
"2018-06-29 21:43:56",348
"2018-06-30 11:43:56",348
"2018-07-01 01:43:54",348
"2018-07-01 15:43:54",348
"2018-07-02 05:43:55",348
"2018-07-02 19:43:56",364
"2018-07-03 09:43:54",366
"2018-07-03 23:43:53",393
"2018-07-04 13:43:54",393
"2018-07-05 03:43:54",393
"2018-07-05 17:43:56",403
"2018-07-06 07:43:54",409
"2018-07-06 21:43:54",403
"2018-07-07 11:43:54",403
"2018-07-08 01:43:55",403
"2018-07-08 15:43:54",403
"2018-07-09 05:43:55",403
"2018-07-09 19:44:17",427
"2018-07-10 09:43:55",443
"2018-07-10 23:43:56",507
"2018-07-11 13:43:58",507
"2018-07-12 03:43:55",559
"2018-07-12 17:43:57",613
"2018-07-13 07:43:55",629
"2018-07-13 21:43:54",661
"2018-07-14 11:43:56",661
"2018-07-15 01:43:56",661
"2018-07-15 15:43:58",661
"2018-07-16 05:43:56",661
"2018-07-16 19:44:34",663
"2018-07-17 09:43:56",662
"2018-07-17 23:44:00",581
"2018-07-18 13:44:04",582
"2018-07-19 03:44:06",570
"2018-07-19 17:44:03",562
"2018-07-20 07:44:05",562
"2018-07-20 21:44:01",524
"2018-07-21 11:44:00",524
"2018-07-22 01:44:00",524
"2018-07-22 15:44:01",524
"2018-07-23 05:43:59",524
"2018-07-24 08:44:00",510
"2018-07-24 22:44:00",500
"2018-07-25 12:44:00",500
"2018-07-26 02:44:03",479
"2018-07-26 17:44:03",480
"2018-07-27 07:44:02",475
"2018-07-27 21:44:02",453
"2018-07-28 11:44:01",453
"2018-07-29 01:44:03",453
"2018-07-29 15:44:01",453
"2018-07-30 05:44:02",453
"2018-07-30 19:44:04",447
"2018-07-31 09:50:58",446
"2018-07-31 23:44:03",443
"2018-08-01 14:09:09",438
"2018-08-02 03:44:02",433
"2018-08-02 17:44:05",426
"2018-08-03 07:44:02",419
"2018-08-03 21:44:02",421
"2018-08-04 11:44:02",421
"2018-08-05 01:44:03",421
"2018-08-05 15:44:03",421
"2018-08-06 05:44:02",421
"2018-08-06 19:44:04",416
"2018-08-07 09:44:02",415
"2018-08-07 23:44:03",412
"2018-08-08 13:44:08",412
"2018-08-10 02:44:07",406
"2018-08-10 16:44:08",405
"2018-08-11 06:44:06",402
"2018-08-11 20:44:07",402
"2018-08-12 10:44:05",402
"2018-08-13 00:44:06",402
"2018-08-13 14:44:09",401
"2018-08-14 04:44:08",395
"2018-08-14 18:44:08",422
"2018-08-15 08:44:07",423
"2018-08-15 22:44:07",408
"2018-08-16 12:44:07",408
"2018-08-17 02:44:09",396
"2018-08-17 16:44:07",391
"2018-08-18 06:44:08",398
"2018-08-18 20:44:08",398
"2018-08-19 10:44:06",398
"2018-08-20 00:44:08",398
"2018-08-20 14:44:11",397
"2018-08-21 04:44:07",393
"2018-08-21 18:44:07",405
"2018-08-22 08:44:06",410
"2018-08-22 22:44:06",410
"2018-08-23 12:44:06",410
"2018-08-24 02:44:06",398
"2018-08-25 07:44:05",392
"2018-08-25 21:44:07",392
"2018-08-26 11:44:06",392
"2018-08-27 01:44:07",392
"2018-08-27 15:44:08",392
"2018-08-28 05:44:06",389
"2018-08-28 19:44:20",386
"2018-08-29 09:44:18",385
"2018-08-29 23:44:19",384
"2018-08-30 13:44:27",384
"2018-08-31 03:44:19",378
"2018-08-31 17:44:21",376
"2018-09-01 07:44:20",376
"2018-09-01 21:44:19",376
"2018-09-02 11:44:19",376
"2018-09-03 01:44:20",376
"2018-09-03 15:44:18",376
"2018-09-04 05:44:19",376
"2018-09-04 19:44:23",369
"2018-09-05 09:44:19",367
"2018-09-05 23:44:20",361
"2018-09-06 13:44:27",361
"2018-09-07 03:44:19",360
"2018-09-07 18:44:19",350
"2018-09-08 08:44:18",348
"2018-09-08 22:44:19",348
"2018-09-09 12:44:19",348
"2018-09-10 02:44:21",348
"2018-09-10 16:44:22",353
"2018-09-11 06:44:20",375
"2018-09-11 20:44:18",408
"2018-09-13 04:44:19",392
"2018-09-13 19:44:21",389
"2018-09-14 09:44:22",391
"2018-09-14 23:44:20",387
"2018-09-15 13:44:21",387
"2018-09-16 03:44:20",387
"2018-09-16 17:44:20",387
"2018-09-17 07:44:20",387
"2018-09-17 21:44:20",379
"2018-09-18 11:44:19",379
"2018-09-19 01:44:21",366
"2018-09-19 15:44:26",366
"2018-09-20 05:44:21",361
"2018-09-20 20:44:23",359
"2018-09-21 11:44:21",358
"2018-09-22 01:44:21",352
"2018-09-22 15:44:22",352
"2018-09-23 05:44:21",352
"2018-09-23 19:44:21",352
"2018-09-24 09:44:20",352
"2018-09-24 23:44:22",358
"2018-09-25 13:44:27",358
"2018-09-26 03:44:25",374
"2018-09-26 17:44:23",368
"2018-09-27 07:44:22",367
"2018-09-27 21:44:23",361
"2018-09-28 11:44:23",361
"2018-09-29 01:44:26",368
"2018-09-29 15:44:24",368
"2018-09-30 05:44:21",368
"2018-09-30 19:44:22",368
"2018-10-01 09:44:21",368
"2018-10-01 23:44:25",360
"2018-10-02 13:44:27",360
"2018-10-03 03:44:24",348
"2018-10-03 17:44:26",350
"2018-10-04 07:44:23",347
"2018-10-04 21:44:23",337
"2018-10-05 11:44:23",337
"2018-10-06 01:44:24",326
"2018-10-06 15:44:24",326
"2018-10-07 05:44:24",326
"2018-10-07 19:44:24",326
"2018-10-08 09:44:22",326
"2018-10-08 23:44:24",322
"2018-10-09 13:44:30",322
"2018-10-10 04:44:22",320
"2018-10-10 18:44:28",317
"2018-10-11 08:44:22",318
"2018-10-11 22:44:21",311
"2018-10-12 12:44:22",311
"2018-10-13 02:44:23",309
"2018-10-13 16:44:21",309
"2018-10-14 06:44:21",309
"2018-10-14 20:44:21",309
"2018-10-15 10:44:22",309
"2018-10-16 00:44:25",311
"2018-10-16 18:44:28",310
"2018-10-17 08:44:23",309
"2018-10-17 22:44:24",303
"2018-10-18 13:09:25",303
"2018-10-19 02:44:23",304
"2018-10-19 16:44:24",300
"2018-10-20 06:44:23",300
"2018-10-20 20:44:24",300
"2018-10-21 10:44:21",300
"2018-10-22 00:44:26",300
"2018-10-22 14:44:27",299
"2018-10-23 04:44:23",293
"2018-10-23 18:44:24",297
"2018-10-24 08:44:23",306
"2018-10-24 22:44:25",335
"2018-10-25 14:10:35",330
"2018-10-26 03:44:27",334
"2018-10-26 17:44:24",316
"2018-10-27 07:44:24",318
"2018-10-27 21:44:23",318
"2018-10-28 11:44:22",318
"2018-10-29 01:44:23",318
"2018-10-29 15:44:22",315
"2018-10-30 05:44:22",310
"2018-10-30 19:44:24",306
"2018-10-31 09:44:23",306
"2018-10-31 23:44:23",306
"2018-11-01 13:44:25",306
"2018-11-02 03:44:26",301
"2018-11-02 17:44:29",299
"2018-11-03 07:44:23",302
"2018-11-03 21:45:28",302
"2018-11-04 11:44:24",302
"2018-11-05 01:44:25",302
"2018-11-05 15:44:27",301
"2018-11-06 05:44:26",302
"2018-11-06 19:44:26",299
"2018-11-07 09:44:25",298
"2018-11-07 23:44:26",298
"2018-11-08 13:44:25",298
"2018-11-09 03:44:27",301
"2018-11-09 17:44:27",300
"2018-11-10 07:44:25",299
"2018-11-10 21:44:27",299
"2018-11-11 11:44:26",299
"2018-11-12 01:44:25",299
"2018-11-12 15:44:27",299
"2018-11-13 05:44:26",300
"2018-11-13 19:44:26",299
"2018-11-14 09:44:27",299
"2018-11-14 23:44:27",296
"2018-11-15 13:44:27",296
"2018-11-16 03:44:26",297
"2018-11-16 17:44:27",296
"2018-11-17 07:44:25",293
"2018-11-17 21:44:26",293
"2018-11-18 11:44:26",293
"2018-11-19 01:44:26",293
"2018-11-19 16:44:30",300
"2018-11-20 06:44:27",302
"2018-11-20 20:44:28",302
"2018-11-21 10:44:26",306
"2018-11-22 01:44:26",301
"2018-11-22 15:44:26",301
"2018-11-23 05:44:26",301
"2018-11-23 19:44:27",301
"2018-11-24 09:44:26",301
"2018-11-24 23:44:27",301
"2018-11-25 13:44:26",301
"2018-11-26 03:44:26",301
"2018-11-26 17:44:27",301
"2018-11-27 07:44:26",300
"2018-11-27 21:44:30",303
"2018-11-28 11:44:27",303
"2018-11-29 01:44:28",302
"2018-11-29 15:44:28",301
"2018-11-30 05:44:30",299
"2018-11-30 19:44:28",294
"2018-12-01 09:44:27",293
"2018-12-01 23:44:28",293
"2018-12-02 13:44:26",293
"2018-12-03 03:44:27",293
"2018-12-03 17:44:30",292
"2018-12-04 07:44:28",289
"2018-12-04 21:44:29",288
"2018-12-05 11:44:27",288
"2018-12-06 01:44:29",288
"2018-12-06 15:44:29",289
"2018-12-07 05:44:33",289
"2018-12-07 19:44:35",287
"2018-12-08 10:44:33",287
"2018-12-09 00:44:33",287
"2018-12-09 14:44:32",287
"2018-12-10 04:44:35",287
"2018-12-10 18:44:34",286
"2018-12-11 08:44:33",282
"2018-12-11 22:44:34",279
"2018-12-12 12:44:37",279
"2018-12-13 02:44:34",277
"2018-12-13 16:44:33",278
"2018-12-14 06:44:34",277
"2018-12-14 20:44:37",277
"2018-12-15 10:44:33",276
"2018-12-16 00:44:33",276
"2018-12-16 14:44:33",276
"2018-12-17 04:44:38",276
"2018-12-17 18:44:34",276
"2018-12-18 08:44:32",276
"2018-12-18 22:44:33",274
"2018-12-19 13:44:32",273
"2018-12-20 03:44:36",272
"2018-12-20 17:44:35",269
"2018-12-21 07:44:32",270
"2018-12-21 21:44:38",270
"2018-12-22 11:44:33",270
"2018-12-23 01:44:36",270
"2018-12-23 15:44:38",270
"2018-12-24 05:44:35",270
"2018-12-24 19:44:39",271
"2018-12-25 09:44:34",271
"2018-12-25 23:44:34",271
"2018-12-26 13:44:41",271
"2018-12-27 03:44:39",266
"2018-12-27 17:44:38",265
"2018-12-28 07:44:43",266
"2018-12-28 21:44:39",268
"2018-12-29 11:44:35",268
"2018-12-30 01:44:37",268
"2018-12-30 15:44:33",268
"2018-12-31 05:44:38",268
"2018-12-31 19:44:36",269
"2019-01-01 09:44:32",268
"2019-01-01 23:44:33",268
"2019-01-02 13:44:33",268
"2019-01-03 03:44:35",272
"2019-01-03 18:44:38",272
"2019-01-04 08:44:37",270
"2019-01-04 22:44:34",267
"2019-01-05 12:44:34",267
"2019-01-06 02:44:34",267
"2019-01-06 16:44:34",267
"2019-01-07 06:44:35",267
"2019-01-07 20:44:39",272
"2019-01-08 10:44:37",272
"2019-01-09 00:44:37",272
"2019-01-09 15:44:37",271
"2019-01-10 05:44:35",269
"2019-01-10 19:44:35",271
"2019-01-11 09:44:36",270
"2019-01-11 23:44:34",270
"2019-01-12 13:44:33",270
"2019-01-13 03:44:34",270
"2019-01-13 17:44:34",270
"2019-01-14 07:44:33",270
"2019-01-14 21:44:35",270
"2019-01-15 11:44:33",270
"2019-01-16 01:44:42",269
"2019-01-16 15:44:36",269
"2019-01-17 05:44:34",269
"2019-01-17 19:44:38",268
"2019-01-18 09:44:35",268
"2019-01-18 23:44:35",271
"2019-01-19 13:44:34",271
"2019-01-20 03:44:34",271
"2019-01-20 17:44:34",271
"2019-01-21 07:44:33",271
"2019-01-21 21:44:33",271
"2019-01-22 11:44:33",271
"2019-01-23 01:44:34",271
"2019-01-23 15:44:34",271
"2019-01-30 09:49:14",270
"2019-01-30 16:49:15",269
"2019-01-31 00:49:17",267
"2019-01-31 08:18:05",267
"2019-01-31 22:44:40",264
"2019-02-01 12:44:40",264
"2019-02-02 02:44:42",268
"2019-02-02 16:44:46",268
"2019-02-03 06:44:41",268
"2019-02-03 20:44:42",268
"2019-02-04 10:44:42",268
"2019-02-05 00:44:43",272
"2019-02-05 14:44:44",272
"2019-02-06 04:44:43",270
"2019-02-07 10:44:45",266
"2019-02-08 00:45:15",266
"2019-02-08 15:09:18",267
"2019-02-09 04:44:47",269
"2019-02-09 18:44:44",269
"2019-02-10 08:44:44",269
"2019-02-10 22:44:47",269
"2019-02-11 12:44:44",269
"2019-02-12 02:44:50",268
"2019-02-12 16:44:46",268
"2019-02-13 06:44:45",269
"2019-02-13 20:44:44",270
"2019-02-14 10:44:44",269
"2019-02-15 01:44:49",270
"2019-02-15 15:44:58",269
"2019-02-16 05:44:50",266
"2019-02-16 19:44:45",266
"2019-02-17 09:44:43",266
"2019-02-17 23:44:46",266
"2019-02-18 13:44:49",266
"2019-02-19 03:44:47",266
"2019-02-19 17:44:48",268
"2019-02-20 07:44:46",269
"2019-02-20 21:44:51",268
"2019-02-21 11:44:47",268
"2019-02-22 01:44:50",268
"2019-02-22 15:44:49",268
"2019-02-23 05:44:49",269
"2019-02-23 19:44:47",269
"2019-02-24 09:44:46",269
"2019-02-24 23:44:47",269
"2019-02-25 14:09:51",269
"2019-02-26 03:44:52",269
"2019-02-26 17:44:49",270
"2019-02-27 08:44:48",270
"2019-02-27 22:44:51",268
"2019-02-28 13:44:49",268
"2019-03-01 03:44:53",271
"2019-03-01 17:44:49",271
"2019-03-02 17:44:49",270
"2019-03-04 21:44:48",275
"2019-03-05 11:44:44",275
"2019-03-06 01:44:51",271
"2019-03-06 15:45:20",267
"2019-03-07 06:44:49",271
"2019-03-07 20:44:51",271
"2019-03-08 11:44:48",272
"2019-03-09 01:44:53",273
"2019-03-09 15:44:51",273
"2019-03-10 05:44:48",273
"2019-03-10 19:44:49",273
"2019-03-11 09:44:48",273
"2019-03-11 23:44:51",270
"2019-03-12 13:44:49",270
"2019-03-13 03:44:51",267
"2019-03-13 17:44:51",270
"2019-03-14 07:44:48",271
"2019-03-14 21:44:50",273
"2019-03-15 11:44:51",273
"2019-03-16 01:44:48",268
"2019-03-16 15:44:50",268
"2019-03-17 05:44:52",268
"2019-03-17 19:44:48",268
"2019-03-18 09:44:48",268
"2019-03-18 23:44:53",272
"2019-03-19 13:44:51",272
"2019-03-20 03:44:58",271
"2019-03-20 17:44:54",273
"2019-03-21 07:44:48",273
"2019-03-21 21:44:45",275
"2019-03-22 11:44:43",275
"2019-03-23 01:44:54",278
"2019-03-23 15:44:47",278
"2019-03-24 05:44:47",278
"2019-03-24 19:44:46",278
"2019-03-25 09:44:45",278
"2019-03-25 23:44:57",274
"2019-03-26 13:44:56",274
"2019-03-27 03:44:55",272
"2019-03-27 17:45:00",271
"2019-03-28 07:44:46",272
"2019-03-28 21:44:50",275
"2019-03-29 11:44:51",275
"2019-03-30 01:44:55",274
"2019-03-30 15:44:46",274
"2019-03-31 05:44:46",274
"2019-03-31 19:44:47",274
"2019-04-01 09:44:49",274
"2019-04-02 00:44:58",279
"2019-04-02 14:44:48",279
"2019-04-03 04:44:55",278
"2019-04-03 18:44:50",277
"2019-04-04 08:44:54",277
"2019-04-04 22:45:02",281
"2019-04-05 13:08:58",281
"2019-04-06 02:44:56",282
"2019-04-06 16:44:49",282
"2019-04-07 06:44:53",282
"2019-04-07 20:44:57",282
"2019-04-08 10:44:49",282
"2019-04-09 00:44:58",288
"2019-04-09 14:44:51",289
"2019-04-10 04:45:02",290
"2019-04-10 18:44:59",292
"2019-04-11 19:45:11",293
"2019-04-12 09:44:58",293
"2019-04-12 23:44:50",295
"2019-04-13 13:44:52",295
"2019-04-14 03:44:52",295
"2019-04-14 17:44:53",295
"2019-04-15 07:44:51",295
"2019-04-15 21:44:53",296
"2019-04-16 11:44:50",297
"2019-04-17 01:44:55",299
"2019-04-17 15:45:24",297
"2019-04-18 06:44:52",299
"2019-04-18 20:44:52",298
"2019-04-19 11:44:49",298
"2019-04-20 01:44:54",298
"2019-04-20 15:44:49",298
"2019-04-21 05:44:51",298
"2019-04-21 19:44:59",298
"2019-04-22 09:44:49",298
"2019-04-22 23:44:56",296
"2019-04-23 13:44:52",296
"2019-04-24 03:44:53",301
"2019-04-24 17:44:56",300
"2019-04-25 07:44:52",300
"2019-04-25 21:44:58",304
"2019-04-26 11:44:50",304
"2019-04-27 01:44:56",304
"2019-04-27 15:44:47",304
"2019-04-28 05:44:49",304
"2019-04-28 19:48:03",304
"2019-04-29 09:44:52",304
"2019-04-29 23:44:51",301
"2019-04-30 13:44:55",301
"2019-05-01 03:45:02",302
"2019-05-01 17:44:49",300
"2019-05-02 07:44:58",299
"2019-05-02 22:45:07",298
"2019-05-03 13:08:09",298
"2019-05-04 02:45:06",297
"2019-05-04 16:44:59",297
"2019-05-05 06:45:03",297
"2019-05-05 20:44:56",297
"2019-05-06 10:44:57",297
"2019-05-06 23:44:50",296
"2019-05-07 13:44:55",296
"2019-05-08 03:44:58",296
"2019-05-08 17:44:58",296
"2019-05-09 07:44:58",296
"2019-05-09 21:44:53",295
"2019-05-10 11:44:54",295
"2019-05-11 01:44:53",293
"2019-05-11 15:44:56",293
"2019-05-12 05:44:56",293
"2019-05-12 19:44:53",293
"2019-05-13 09:44:53",293
"2019-05-13 23:44:52",292
"2019-05-14 13:44:57",292
"2019-05-15 03:44:59",292
"2019-05-15 17:44:56",292
"2019-05-16 07:45:02",293
"2019-05-16 21:45:00",293
"2019-05-17 11:45:02",293
"2019-05-18 01:45:00",294
"2019-05-18 16:44:48",294
"2019-05-19 06:44:48",294
"2019-05-19 20:44:50",294
"2019-05-20 10:44:49",294
"2019-05-21 00:44:48",294
"2019-05-21 14:44:50",294
"2019-05-22 04:44:50",295
"2019-05-22 18:44:48",295
"2019-05-23 08:44:49",294
"2019-05-23 22:44:49",293
"2019-05-24 13:08:53",293
"2019-05-25 04:44:52",297
"2019-05-26 17:44:53",297
"2019-05-27 07:44:55",297
"2019-05-27 21:44:49",297
"2019-05-28 11:44:48",297
"2019-05-29 01:44:50",300
"2019-05-29 15:44:51",300
"2019-05-30 05:44:53",300
"2019-05-30 19:44:50",300
"2019-05-31 09:44:52",300
"2019-05-31 23:44:50",299
"2019-06-01 13:44:49",299
"2019-06-02 03:44:51",299
"2019-06-02 17:44:51",299
"2019-06-03 07:44:48",299
"2019-06-03 21:44:51",300
"2019-06-04 11:44:50",300
"2019-06-05 01:44:51",300
"2019-06-05 15:44:50",302
"2019-06-06 05:44:50",301
"2019-06-06 19:44:53",303
"2019-06-07 09:44:53",304
"2019-06-07 23:44:55",301
"2019-06-08 13:44:50",301
"2019-06-09 03:44:57",301
"2019-06-09 17:44:53",301
"2019-06-10 07:44:56",301
"2019-06-10 21:44:53",300
"2019-06-11 11:44:55",300
"2019-06-12 01:44:56",298
"2019-06-12 15:44:57",298
"2019-06-13 05:44:59",299
"2019-06-13 19:44:55",298
"2019-06-14 09:44:56",297
"2019-06-14 23:44:57",297
"2019-06-15 13:45:03",297
"2019-06-16 03:44:56",297
"2019-06-16 17:44:59",297
"2019-06-17 07:44:55",297
"2019-06-17 21:44:56",297
"2019-06-18 11:44:55",297
"2019-06-19 01:44:59",299
"2019-06-19 15:44:56",301
"2019-06-20 05:44:54",302
"2019-06-20 19:44:56",301
"2019-06-21 09:44:57",301
"2019-06-21 23:45:25",300
"2019-06-22 13:44:57",300
"2019-06-23 03:44:59",300
"2019-06-23 17:44:59",300
"2019-06-24 07:44:56",300
"2019-06-24 21:45:00",299
"2019-06-25 11:44:55",299
"2019-06-26 01:44:57",298
"2019-06-26 15:44:56",296
"2019-06-27 05:44:58",297
"2019-06-27 19:44:54",297
"2019-06-28 09:44:54",297
"2019-06-28 23:44:54",298
"2019-06-29 13:44:56",298
"2019-06-30 03:44:57",298
"2019-06-30 17:44:56",298
"2019-07-01 07:45:04",298
"2019-07-01 21:44:59",299
"2019-07-02 12:45:02",299
"2019-07-03 03:45:03",299
"2019-07-03 17:44:59",299
"2019-07-04 07:44:57",299
"2019-07-04 21:45:00",299
"2019-07-05 11:45:08",299
"2019-07-06 01:45:03",299
"2019-07-06 15:44:57",299
"2019-07-07 05:45:02",299
"2019-07-07 19:44:55",299
"2019-07-08 09:45:06",299
"2019-07-08 23:44:55",304
"2019-07-09 13:44:54",304
"2019-07-10 03:44:55",307
"2019-07-10 17:44:56",308
"2019-07-11 07:44:56",309
"2019-07-11 21:45:01",309
"2019-07-12 11:44:57",309
"2019-07-13 01:44:58",308
"2019-07-13 15:44:58",308
"2019-07-14 05:45:01",308
"2019-07-14 19:44:56",308
"2019-07-15 09:44:54",308
"2019-07-15 23:44:56",312
"2019-07-16 13:44:58",312
"2019-07-17 03:44:59",314
"2019-07-17 17:44:55",313
"2019-07-18 07:44:54",312
"2019-07-18 21:44:57",316
"2019-07-19 11:44:56",316
"2019-07-20 01:45:05",313
"2019-07-20 15:44:55",313
"2019-07-21 05:45:04",313
"2019-07-21 19:44:56",313
"2019-07-22 09:44:55",313
"2019-07-22 23:44:55",315
"2019-07-23 13:44:56",315
"2019-07-24 03:44:58",317
"2019-07-24 17:44:56",316
"2019-07-25 07:44:58",316
"2019-07-25 21:45:04",315
"2019-07-26 11:45:02",315
"2019-07-27 02:45:00",314
"2019-07-27 16:45:07",314
"2019-07-28 06:44:56",314
"2019-07-28 20:44:55",314
"2019-07-29 10:44:57",314
"2019-07-30 00:44:57",314
"2019-07-30 14:44:59",312
"2019-07-31 04:44:59",313
"2019-07-31 18:44:57",310
"2019-08-01 08:44:57",311
"2019-08-01 22:44:56",308
"2019-08-02 13:09:05",308
"2019-08-03 02:45:09",307
"2019-08-03 16:44:59",307
"2019-08-04 06:44:57",307
"2019-08-04 20:44:58",307
"2019-08-05 10:44:59",307
"2019-08-06 00:45:12",308
"2019-08-06 14:44:57",307
"2019-08-07 05:45:03",309
"2019-08-07 19:44:58",311
"2019-08-08 09:44:57",310
"2019-08-08 23:45:02",312
"2019-08-09 13:45:04",312
"2019-08-10 03:45:02",312
"2019-08-10 17:45:03",312
"2019-08-11 07:45:04",312
"2019-08-11 21:45:06",312
"2019-08-12 11:45:03",312
"2019-08-13 01:45:02",315
"2019-08-13 15:45:08",314
"2019-08-14 05:45:20",315
"2019-08-14 19:45:06",317
"2019-08-15 09:45:01",318
"2019-08-15 23:45:11",317
"2019-08-16 13:45:04",316
"2019-08-17 05:45:08",318
"2019-08-17 19:45:04",318
"2019-08-18 09:45:08",318
"2019-08-18 23:45:06",318
"2019-08-19 13:45:08",318
"2019-08-20 03:45:01",317
"2019-08-20 17:45:02",316
"2019-08-21 07:45:04",317
"2019-08-21 21:45:05",321
"2019-08-22 11:45:06",321
"2019-08-23 01:45:12",319
"2019-08-23 15:45:07",325
"2019-08-24 05:45:06",326
"2019-08-24 19:45:04",326
"2019-08-25 09:45:02",326
"2019-08-25 23:45:04",326
"2019-08-26 13:45:05",326
"2019-08-27 03:45:04",330
"2019-08-27 17:45:04",333
"2019-08-28 07:45:09",332
"2019-08-28 21:45:06",335
"2019-08-29 11:45:01",335
"2019-08-30 01:45:09",334
"2019-08-30 15:45:01",334
"2019-09-01 00:45:17",334
"2019-09-01 14:45:12",334
"2019-09-02 04:45:15",334
"2019-09-02 18:45:16",334
"2019-09-03 08:45:21",334
"2019-09-03 22:45:24",337
"2019-09-04 13:08:22",337
"2019-09-05 03:45:13",337
"2019-09-05 17:45:17",338
"2019-09-06 07:45:18",339
"2019-09-06 21:45:16",335
"2019-09-07 12:45:13",335
"2019-09-08 03:45:16",335
"2019-09-08 17:45:14",335
"2019-09-09 07:45:14",335
"2019-09-09 21:45:14",334
"2019-09-10 11:45:14",334
"2019-09-11 01:45:15",336
"2019-09-11 15:45:14",341
"2019-09-12 05:45:24",343
"2019-09-12 19:45:13",342
"2019-09-13 09:45:12",344
"2019-09-13 23:45:13",344
"2019-09-14 13:45:09",344
"2019-09-15 03:45:14",344
"2019-09-15 17:45:08",344
"2019-09-16 07:45:10",344
"2019-09-16 21:45:15",342
"2019-09-17 11:45:14",342
"2019-09-18 01:45:13",343
"2019-09-18 15:45:18",343
"2019-09-19 05:45:15",343
"2019-09-19 19:45:10",342
"2019-09-20 09:45:11",342
"2019-09-20 23:45:09",344
"2019-09-21 13:45:14",344
"2019-09-22 03:45:10",344
"2019-09-22 17:45:10",344
"2019-09-23 07:45:09",344
"2019-09-23 21:45:11",345
"2019-09-24 12:45:14",345
"2019-09-25 02:45:08",347
"2019-09-25 16:45:14",347
"2019-09-26 06:45:13",348
"2019-09-26 20:45:11",348
"2019-09-27 10:45:14",348
"2019-09-28 00:45:11",351
"2019-09-28 14:45:09",351
"2019-09-29 04:45:11",351
"2019-09-29 18:45:10",351
"2019-09-30 08:45:11",351
"2019-09-30 22:45:09",355
"2019-10-01 13:08:16",356
"2019-10-02 02:45:10",364
"2019-10-02 16:45:08",364
"2019-10-03 07:45:13",365
"2019-10-03 21:45:09",370
"2019-10-04 11:45:09",370
"2019-10-05 01:45:09",374
"2019-10-05 15:45:09",374
"2019-10-06 05:45:10",374
"2019-10-06 19:45:13",374
"2019-10-07 09:45:16",374
"2019-10-07 23:45:14",374
"2019-10-08 13:45:11",374
"2019-10-09 03:45:08",374
"2019-10-09 17:45:21",375
"2019-10-10 07:45:14",373
"2019-10-10 21:45:12",372
"2019-10-11 11:45:11",372
"2019-10-12 01:45:11",370
"2019-10-12 15:45:12",370
"2019-10-13 05:45:11",370
"2019-10-13 19:45:14",370
"2019-10-14 09:45:15",370
"2019-10-14 23:45:22",372
"2019-10-15 14:45:12",373
"2019-10-16 04:45:13",373
"2019-10-16 18:45:15",376
"2019-10-17 09:45:11",379
"2019-10-17 23:45:13",384
"2019-10-18 13:45:11",384
"2019-10-19 03:45:11",391
"2019-10-19 17:45:12",391
"2019-10-20 07:45:16",391
"2019-10-20 22:45:11",391
"2019-10-21 13:08:44",391
"2019-10-22 03:45:18",398
"2019-10-22 17:45:17",403
"2019-10-23 07:45:16",406
"2019-10-23 21:45:12",404
"2019-10-24 11:45:11",404
"2019-10-25 01:45:14",407
"2019-10-25 15:45:13",408
"2019-10-26 05:45:13",411
"2019-10-26 19:45:16",411
"2019-10-27 09:45:12",411
"2019-10-27 23:45:12",411
"2019-10-28 14:45:17",412
"2019-10-29 07:45:16",414
"2019-10-29 21:45:17",418
"2019-10-30 11:45:12",418
"2019-10-31 02:45:12",415
"2019-10-31 16:45:16",412
"2019-11-01 06:45:13",412
"2019-11-01 20:45:14",412
"2019-11-02 10:45:17",412
"2019-11-03 03:45:15",412
"2019-11-04 07:45:12",412
"2019-11-04 22:45:13",413
"2019-11-05 12:45:13",413
"2019-11-06 02:45:14",410
"2019-11-06 16:45:16",409
"2019-11-07 06:45:14",405
"2019-11-07 21:09:52",399
"2019-11-08 10:45:20",399
"2019-11-09 00:45:23",401
"2019-11-09 14:45:23",401
"2019-11-10 04:45:21",401
"2019-11-10 18:45:23",401
"2019-11-11 08:45:26",401
"2019-11-11 23:45:21",401
"2019-11-12 14:09:24",401
"2019-11-13 03:45:24",403
"2019-11-13 18:45:26",402
"2019-11-14 08:45:24",401
"2019-11-14 23:45:23",401
"2019-11-15 14:11:54",401
"2019-11-16 04:45:22",402
"2019-11-16 18:45:20",402
"2019-11-17 08:45:20",402
"2019-11-17 23:45:23",402
"2019-11-18 14:10:27",402
"2019-11-19 03:45:19",407
"2019-11-19 17:45:28",408
"2019-11-20 07:45:23",409
"2019-11-21 02:45:23",410
"2019-11-21 16:45:21",410
"2019-11-22 06:45:21",410
"2019-11-22 20:45:19",412
"2019-11-23 10:45:21",413
"2019-11-24 00:45:21",413
"2019-11-24 14:45:18",413
"2019-11-25 05:45:19",413
"2019-11-25 19:45:21",418
"2019-11-26 20:45:24",420
"2019-11-27 10:45:19",420
"2019-11-28 00:45:21",419
"2019-11-28 14:45:19",419
"2019-11-29 05:45:23",419
"2019-11-29 20:45:27",418
"2019-11-30 22:45:30",418
"2019-12-02 09:47:38",418
"2019-12-02 23:48:03",415
"2019-12-03 13:47:33",415
"2019-12-04 03:48:08",418
"2019-12-04 18:48:09",419
"2019-12-05 09:47:37",418
"2019-12-05 23:47:45",418
"2019-12-06 13:48:55",418
"2019-12-07 03:48:04",415
"2019-12-07 17:48:09",415
"2019-12-08 07:48:04",415
"2019-12-08 21:48:08",415
"2019-12-09 11:47:38",415
"2019-12-10 01:48:03",420
"2019-12-10 15:47:46",421
"2019-12-11 05:48:15",422
"2019-12-11 19:48:21",420
"2019-12-12 09:48:09",420
"2019-12-13 00:48:58",414
"2019-12-13 14:49:48",414
"2019-12-14 04:49:03",415
"2019-12-14 18:49:14",415
"2019-12-15 10:48:30",415
"2019-12-16 02:48:52",415
"2019-12-16 17:49:23",414
"2019-12-17 07:48:49",413
"2019-12-17 21:48:49",414
"2019-12-18 12:48:43",414
"2019-12-19 02:49:18",419
"2019-12-19 16:49:37",418
"2019-12-20 06:49:37",420
"2019-12-20 20:49:52",416
"2019-12-21 10:48:36",416
"2019-12-22 01:48:46",416
"2019-12-22 16:48:57",416
"2019-12-23 07:48:39",416
"2019-12-23 21:49:16",417
"2019-12-24 11:48:46",417
"2019-12-25 01:48:38",424
"2019-12-25 15:49:12",424
"2019-12-26 05:48:53",424
"2019-12-26 19:48:59",422
"2019-12-27 10:48:24",421
"2019-12-28 00:49:26",421
"2019-12-28 14:49:12",421
"2019-12-29 05:49:30",421
"2019-12-29 19:49:23",421
"2019-12-30 09:49:03",421
"2019-12-31 00:49:10",424
"2019-12-31 14:50:09",424
"2020-01-01 04:48:36",427
"2020-01-01 18:49:02",427
"2020-01-02 08:49:00",427
"2020-01-02 22:49:59",425
"2020-01-03 12:48:38",425
"2020-01-04 02:48:58",424
"2020-01-04 16:49:14",423
"2020-01-05 07:48:40",423
"2020-01-05 22:49:01",423
"2020-01-16 09:48:21",436
"2020-01-17 00:49:20",437
"2020-01-17 14:48:56",437
"2020-01-18 04:48:24",437
"2020-01-18 18:48:32",437
"2020-01-19 09:48:14",437
"2020-01-19 23:49:40",437
"2020-01-20 13:49:05",437
"2020-01-21 04:48:23",437
"2020-01-21 19:49:19",437
"2020-01-22 09:59:44",437
"2020-01-22 23:49:15",440
"2020-01-23 14:49:10",440
"2020-01-24 04:48:28",439
"2020-01-24 18:48:33",443
"2020-01-25 08:48:28",440
"2020-01-25 23:48:22",440
"2020-01-27 08:48:24",440
"2020-01-27 22:49:36",439
"2020-01-28 12:48:21",439
"2020-01-29 03:48:53",442
"2020-01-29 17:49:21",442
"2020-01-30 07:48:18",439
"2020-01-30 21:49:01",437
"2020-01-31 11:48:21",437
"2020-02-01 01:48:59",437
"2020-02-01 15:48:38",437
"2020-02-02 05:48:45",437
"2020-02-02 19:48:53",437
"2020-02-03 09:48:46",437
"2020-02-03 23:49:01",436
"2020-02-04 14:14:49",436
"2020-02-05 04:49:46",434
"2020-02-05 18:49:11",433
"2020-02-06 08:48:55",434
"2020-02-06 22:49:09",433
"2020-02-07 12:48:47",433
"2020-02-08 02:49:02",433
"2020-02-08 16:48:58",433
"2020-02-09 06:48:48",433
"2020-02-09 20:48:56",433
"2020-02-10 10:48:46",433
"2020-02-11 00:48:59",430
"2020-02-11 14:49:31",430
"2020-02-12 04:49:11",433
"2020-02-12 18:49:12",434
"2020-02-13 08:48:51",435
"2020-02-13 22:48:39",433
"2020-02-14 12:48:36",433
"2020-02-15 02:48:53",434
"2020-02-15 16:47:47",434
"2020-02-16 06:47:46",434
"2020-02-16 20:47:48",434
"2020-02-17 10:47:47",434
"2020-02-18 01:47:48",434
"2020-02-18 15:49:03",434
"2020-02-19 07:48:36",436
"2020-02-19 21:49:11",436
"2020-02-20 11:49:02",436
"2020-02-21 02:49:34",435
"2020-02-21 16:51:08",435
"2020-02-22 06:48:19",431
"2020-02-22 20:49:11",431
"2020-02-23 10:48:37",431
"2020-02-24 00:49:28",431
"2020-02-24 14:50:55",431
"2020-02-25 04:49:46",431
"2020-02-25 18:50:18",433
"2020-02-26 08:50:05",432
"2020-02-26 22:50:16",432
"2020-02-27 12:50:18",432
"2020-02-28 02:49:31",433
"2020-02-28 16:49:53",432
"2020-02-29 06:49:13",431
"2020-02-29 21:49:00",431
"2020-03-01 11:49:05",431
"2020-03-02 01:49:22",431
"2020-03-03 01:50:40",433
"2020-03-03 17:53:00",433
"2020-03-04 07:50:08",434
"2020-03-04 21:49:28",432
"2020-03-05 11:52:19",432
"2020-03-06 01:49:41",431
"2020-03-06 15:50:35",432
"2020-03-07 05:52:03",436
"2020-03-07 19:49:57",436
"2020-03-08 09:50:23",436
"2020-03-08 23:49:48",436
"2020-03-09 13:49:06",436
"2020-03-10 03:52:31",440
"2020-03-10 18:52:00",442
"2020-03-11 08:50:19",443
"2020-03-11 22:50:32",447
"2020-03-12 12:51:54",447
"2020-03-13 02:52:04",444
"2020-03-13 16:52:14",444
"2020-03-14 06:50:33",448
"2020-03-14 20:52:28",448
"2020-03-15 10:51:41",448
"2020-03-16 00:49:50",448
"2020-03-16 15:51:51",452
"2020-03-17 20:50:33",461
"2020-03-18 10:49:48",461
"2020-03-19 00:50:10",458
"2020-03-19 14:50:10",458
"2020-03-20 04:50:08",461
"2020-03-20 19:50:11",461
"2020-03-21 09:49:55",461
"2020-03-21 23:49:55",461
"2020-03-22 21:59:51",461
"2020-03-23 11:50:34",461
"2020-03-24 01:49:56",464
"2020-03-24 15:51:12",473
"2020-03-25 06:50:54",473
"2020-03-25 21:49:49",475
"2020-03-26 12:50:07",475
"2020-03-27 02:50:36",492
"2020-03-27 16:50:25",510
"2020-03-28 06:50:10",511
"2020-03-28 20:50:02",511
"2020-03-29 10:50:48",511
"2020-03-30 00:50:03",511
"2020-03-30 14:49:58",516
"2020-03-31 04:49:53",514
"2020-03-31 18:50:30",519
"2020-04-01 08:48:45",521
"2020-04-01 22:48:35",520
"2020-04-02 13:13:48",519
"2020-04-03 03:48:36",528
"2020-04-03 18:49:29",538
"2020-04-04 08:49:11",537
"2020-04-04 22:49:29",537
"2020-04-05 12:48:33",537
"2020-04-06 02:49:11",537
"2020-04-06 16:48:35",544
"2020-04-07 06:48:59",545
"2020-04-07 20:48:42",537
"2020-04-08 11:48:27",537
"2020-04-09 02:48:34",539
"2020-04-09 16:48:29",540
"2020-04-10 06:48:21",540
"2020-04-10 20:48:58",540
"2020-04-11 10:48:08",540
"2020-04-12 00:48:08",540
"2020-04-12 14:48:01",540
"2020-04-13 04:48:23",540
"2020-04-13 18:47:51",553
"2020-04-14 08:48:05",553
"2020-04-14 22:47:58",563
"2020-04-15 13:14:44",563
"2020-04-16 03:48:27",572
"2020-04-16 17:48:04",575
"2020-04-17 07:48:24",579
"2020-04-17 21:48:21",578
"2020-04-18 11:48:06",579
"2020-04-19 01:48:49",579
"2020-04-19 15:48:09",579
"2020-04-20 05:48:41",579
"2020-04-20 20:49:14",584
"2020-04-21 10:48:04",584
"2020-04-22 00:48:19",602
"2020-04-22 14:48:19",597
"2020-04-23 04:48:14",598
"2020-04-23 18:48:06",598
"2020-04-24 08:48:09",599
"2020-04-24 22:48:38",607
"2020-04-25 12:47:59",607
"2020-04-26 02:48:23",607
"2020-04-26 16:48:04",607
"2020-04-27 06:48:07",607
"2020-04-27 20:47:59",617
"2020-04-28 10:47:51",617
"2020-04-29 00:48:44",624
"2020-04-29 14:47:54",623
"2020-04-30 04:48:25",627
"2020-04-30 18:48:16",644
"2020-05-01 09:48:06",643
"2020-05-01 23:47:58",651
"2020-05-02 13:48:07",651
"2020-05-03 03:48:29",651
"2020-05-03 17:48:41",651
"2020-05-04 09:34:08",651
"2020-05-04 21:48:32",662
"2020-05-05 11:48:27",662
"2020-05-06 01:48:10",661
"2020-05-07 01:48:14",660
"2020-05-07 16:48:12",659
"2020-05-08 06:47:58",657
"2020-05-08 20:48:13",649
"2020-05-09 10:48:09",649
"2020-05-10 00:48:34",649
"2020-05-10 14:47:59",649
"2020-05-11 04:48:07",649
"2020-05-11 18:48:12",654
"2020-05-12 08:48:04",651
"2020-05-13 02:48:37",651
"2020-05-13 18:48:21",650
"2020-05-14 08:48:17",648
"2020-05-14 22:48:24",651
"2020-05-15 12:48:00",651
"2020-05-16 02:48:45",653
"2020-05-16 16:48:03",653
"2020-05-18 09:57:15",653
"2020-05-18 10:36:35",653
"2020-05-18 12:02:36",653
"2020-05-19 01:47:59",655
"2020-05-19 15:48:01",655
"2020-05-20 05:48:09",657
"2020-05-20 19:48:10",654
"2020-05-21 09:48:01",661
"2020-05-21 23:48:42",653
"2020-05-22 13:48:19",653
"2020-05-23 03:48:13",660
"2020-05-23 17:48:12",660
"2020-05-24 07:48:04",660
"2020-05-24 21:48:22",660
"2020-05-25 12:48:08",660
"2020-05-26 02:47:57",660
"2020-05-26 16:48:03",670
"2020-05-27 06:48:13",677
"2020-05-27 20:48:07",671
"2020-05-28 10:48:17",671
"2020-05-29 00:48:15",686
"2020-05-29 14:48:15",685
"2020-05-30 04:48:09",685
"2020-05-30 18:48:11",685
"2020-05-31 09:32:18",685
"2020-06-01 06:15:58",685
"2020-06-01 13:09:48",685
"2020-06-02 02:48:05",684
"2020-06-02 16:48:12",689
"2020-06-03 06:48:11",698
"2020-06-03 20:48:13",685
"2020-06-04 10:48:11",686
"2020-06-05 00:48:23",702
"2020-06-05 14:48:15",706
"2020-06-06 04:48:23",732
"2020-06-06 19:48:05",732
"2020-06-08 04:48:07",732
"2020-06-08 18:49:03",770
"2020-06-09 08:49:13",780
"2020-06-09 22:48:56",829
"2020-06-10 12:48:39",829
"2020-06-11 03:49:16",825
"2020-06-11 17:48:48",828
"2020-06-12 07:48:24",825
"2020-06-12 21:48:34",822
"2020-06-13 11:48:07",822
"2020-06-14 01:48:07",822
"2020-06-14 15:48:26",822
"2020-06-15 05:48:48",822
"2020-06-15 18:52:32",826
"2020-06-15 20:45:13",823
"2020-06-16 02:49:05",823
"2020-06-16 16:48:20",816
"2020-06-17 06:48:39",820
"2020-06-17 20:48:52",826
"2020-06-18 10:48:03",823
"2020-06-19 01:48:17",823
"2020-06-19 15:48:27",821
"2020-06-20 05:48:15",819
"2020-06-20 19:48:33",819
"2020-06-21 09:48:07",819
"2020-06-21 23:48:27",819
"2020-06-22 13:48:22",819
"2020-06-23 04:48:40",820
"2020-06-23 18:48:48",827
"2020-06-24 08:48:46",826
"2020-06-24 22:48:28",832
"2020-06-25 13:10:55",832
"2020-06-26 02:48:30",825
"2020-06-26 16:48:30",827
"2020-06-27 06:48:21",828
"2020-06-27 20:48:11",828
"2020-06-28 10:48:17",828
"2020-06-29 00:48:36",828
"2020-06-29 14:48:54",833
"2020-06-30 04:48:54",828
"2020-06-30 18:48:45",819
"2020-07-01 08:48:59",818
"2020-07-01 22:48:58",817
"2020-07-02 13:13:29",817
"2020-07-03 02:48:51",836
"2020-07-03 16:48:25",836
"2020-07-04 06:48:34",836
"2020-07-04 20:48:26",836
"2020-07-05 11:40:11",836
"2020-07-06 00:48:28",836
"2020-07-06 14:48:58",847
"2020-07-07 04:48:22",866
"2020-07-07 18:48:20",861
"2020-07-08 08:48:37",861
"2020-07-08 22:48:33",866
"2020-07-10 02:48:56",867
"2020-07-10 16:48:38",862
"2020-07-11 06:48:25",860
"2020-07-11 20:48:12",860
"2020-07-12 11:43:50",860
"2020-07-13 00:48:47",860
"2020-07-13 14:48:29",863
"2020-07-14 04:48:27",853
"2020-07-14 18:49:14",849
"2020-07-15 03:33:22",848
"2020-07-15 12:21:35",848
"2020-07-15 14:13:50",847
"2020-07-15 16:28:06",847
"2020-07-15 18:34:33",850
"2020-07-15 20:40:09",849
"2020-07-15 23:03:49",849
"2020-07-16 01:19:01",849
"2020-07-16 03:39:41",849
"2020-07-16 06:03:26",849
"2020-07-16 08:32:33",849
"2020-07-16 10:40:33",849
"2020-07-16 13:15:06",849
"2020-07-16 17:17:26",849
"2020-07-16 19:11:49",850
"2020-07-16 21:31:10",849
"2020-07-16 23:51:37",849
"2020-07-17 02:15:15",849
"2020-07-17 04:36:15",849
"2020-07-17 06:56:27",849
"2020-07-17 08:44:04",849
"2020-07-17 10:39:43",849
"2020-07-17 13:02:31",849
"2020-07-17 15:04:27",849
"2020-07-17 17:14:17",847
"2020-07-17 19:17:41",843
"2020-07-17 21:14:44",844
"2020-07-17 23:25:51",844
"2020-07-18 01:55:22",844
"2020-07-18 04:13:53",844
"2020-07-18 08:48:46",844
"2020-07-18 10:41:15",844
"2020-07-18 12:57:34",844
"2020-07-18 15:18:00",844
"2020-07-18 17:38:03",844
"2020-07-18 22:12:42",844
"2020-07-18 23:59:01",844
"2020-07-19 02:07:11",844
"2020-07-19 04:21:08",844
"2020-07-19 06:34:57",844
"2020-07-19 08:24:36",844
"2020-07-19 10:31:09",844
"2020-07-19 12:45:32",844
"2020-07-19 14:59:48",844
"2020-07-19 17:14:19",844
"2020-07-19 19:24:27",844
"2020-07-19 21:10:45",844
"2020-07-19 23:00:41",844
"2020-07-20 01:07:01",844
"2020-07-20 03:03:24",844
"2020-07-20 04:54:08",844
"2020-07-20 06:42:38",844
"2020-07-20 08:30:45",844
"2020-07-20 10:18:58",844
"2020-07-20 12:07:19",844
"2020-07-20 13:55:53",844
"2020-07-20 23:46:57",846
"2020-07-21 13:46:55",846
"2020-07-22 03:47:16",852
"2020-07-22 17:46:50",893
"2020-07-23 07:46:35",900
"2020-07-23 21:46:54",894
"2020-07-24 11:46:55",894
"2020-07-25 01:46:37",883
"2020-07-25 15:46:55",883
"2020-07-26 05:46:55",883
"2020-07-26 19:46:56",883
"2020-07-27 09:47:00",883
"2020-07-27 23:47:09",871
"2020-07-28 13:47:03",871
"2020-07-29 03:46:55",872
"2020-07-29 17:47:28",876
"2020-07-30 07:47:15",876
"2020-07-30 21:46:59",877
"2020-07-31 11:46:35",876
"2020-08-01 01:46:37",877
"2020-08-01 15:47:25",877
"2020-08-02 05:46:59",877
"2020-08-02 19:46:56",877
"2020-08-03 09:47:18",877
"2020-08-03 23:47:06",872
"2020-08-04 13:47:18",872
"2020-08-05 03:47:17",900
"2020-08-05 17:46:53",895
"2020-08-06 07:47:17",893
"2020-08-06 21:46:56",895
"2020-08-07 11:46:33",895
"2020-08-08 01:47:11",893
"2020-08-08 15:46:52",893
"2020-08-09 05:47:17",893
"2020-08-09 19:47:14",893
"2020-08-10 09:46:58",893
"2020-08-10 23:46:40",878
"2020-08-11 13:47:22",878
"2020-08-12 03:47:09",882
"2020-08-12 22:46:32",879
"2020-08-13 12:54:51",879
"2020-08-13 22:55:48",871